{
    "resourceType": "Bundle",
    "type": "collection",
    "entry": [
        {
            "resource": {
                "resourceType": "MeasureReport",
                "language": "en",
                "contained": [
                    {
                        "resourceType": "Observation",
                        "id": "ab16d46f-9818-46f8-af5c-fbed42494d05",
                        "extension": [
                            {
                                "url": "http://hl7.org/fhir/StructureDefinition/cqf-measureInfo",
                                "extension": [
                                    {
                                        "url": "measure",
                                        "valueCanonical": "http://ecqi.healthit.gov/ecqms/Measure/DischargedonAntithromboticTherapyQICore4"
                                    }
                                ]
                            }
                        ],
                        "status": "final",
                        "code": {
                            "coding": [
                                {
                                    "system": "http://terminology.hl7.org/CodeSystem/measure-data-usage",
                                    "code": "supplemental-data"
                                },
                                {
                                    "system": "http://terminology.hl7.org/CodeSystem/measure-supplemental-data-example",
                                    "code": "gender",
                                    "display": "Gender"
                                }
                            ]
                        },
                        "valueCodeableConcept": {
                            "coding": [
                                {
                                    "code": "M"
                                }
                            ]
                        }
                    },
                    {
                        "resourceType": "Observation",
                        "id": "8139efd6-f676-4919-bca7-ccee5a037ff3",
                        "extension": [
                            {
                                "url": "http://hl7.org/fhir/StructureDefinition/cqf-measureInfo",
                                "extension": [
                                    {
                                        "url": "measure",
                                        "valueCanonical": "http://ecqi.healthit.gov/ecqms/Measure/DischargedonAntithromboticTherapyQICore4"
                                    }
                                ]
                            }
                        ],
                        "status": "final",
                        "code": {
                            "coding": [
                                {
                                    "system": "http://terminology.hl7.org/CodeSystem/measure-data-usage",
                                    "code": "supplemental-data"
                                },
                                {
                                    "system": "http://terminology.hl7.org/CodeSystem/measure-supplemental-data-example",
                                    "code": "ethnicity",
                                    "display": "Ethnicity"
                                }
                            ]
                        },
                        "valueCodeableConcept": {
                            "coding": [
                                {
                                    "code": "Concept {\n\tCode { code: 2135-1, system: urn:oid:2.16.840.1.113883.6.238, version: null, display: Hispanic or Latino }\n}"
                                }
                            ]
                        }
                    }
                ],
                "extension": [
                    {
                        "url": "http://hl7.org/fhir/5.0/StructureDefinition/extension-MeasureReport.population.description",
                        "valueString": "Ischemic stroke patients prescribed or continuing to take antithrombotic therapy at hospital discharge"
                    },
                    {
                        "url": "http://hl7.org/fhir/5.0/StructureDefinition/extension-MeasureReport.supplementalDataElement.reference",
                        "valueReference": {
                            "reference": "#8139efd6-f676-4919-bca7-ccee5a037ff3"
                        }
                    },
                    {
                        "url": "http://hl7.org/fhir/5.0/StructureDefinition/extension-MeasureReport.supplementalDataElement.reference",
                        "valueReference": {
                            "reference": "#ab16d46f-9818-46f8-af5c-fbed42494d05"
                        }
                    },
                    {
                        "url": "http://cms.gov/fhir/mct/StructureDefinition/measurereport-location",
                        "valueReference": {
                            "reference": "Location/local-test"
                        }
                    }
                ],
                "status": "complete",
                "type": "individual",
                "measure": "http://ecqi.healthit.gov/ecqms/Measure/DischargedonAntithromboticTherapyQICore4",
                "subject": {
                    "reference": "Patient/ineligible-0"
                },
                "date": "2023-02-22T22:26:51-07:00",
                "period": {
                    "start": "2022-01-01T00:00:00-07:00",
                    "end": "2022-03-31T00:00:00-06:00"
                },
                "improvementNotation": {
                    "coding": [
                        {
                            "system": "http://terminology.hl7.org/CodeSystem/measure-improvement-notation",
                            "code": "increase"
                        }
                    ]
                },
                "group": [
                    {
                        "extension": [
                            {
                                "url": "http://hl7.org/fhir/5.0/StructureDefinition/extension-MeasureReport.population.description",
                                "valueString": "Ischemic stroke patients prescribed or continuing to take antithrombotic therapy at hospital discharge"
                            }
                        ],
                        "population": [
                            {
                                "id": "3461E500-1396-4E0C-B6C7-5B5C7B024765",
                                "extension": [
                                    {
                                        "url": "http://hl7.org/fhir/5.0/StructureDefinition/extension-MeasureReport.population.description",
                                        "valueString": "Inpatient hospitalizations for patients age 18 and older, discharged from inpatient care (non-elective admissions) with a principal diagnosis of ischemic or hemorrhagic stroke and a length of stay less than or equal to 120 days that ends during the measurement period"
                                    }
                                ],
                                "code": {
                                    "coding": [
                                        {
                                            "system": "http://terminology.hl7.org/CodeSystem/measure-population",
                                            "code": "initial-population",
                                            "display": "Initial Population"
                                        }
                                    ]
                                },
                                "count": 0
                            },
                            {
                                "id": "D8C1DE16-6CC9-4B90-B1A9-E635665B36CA",
                                "extension": [
                                    {
                                        "url": "http://hl7.org/fhir/5.0/StructureDefinition/extension-MeasureReport.population.description",
                                        "valueString": "Inpatient hospitalizations for patients with a principal diagnosis of Ischemic stroke"
                                    }
                                ],
                                "code": {
                                    "coding": [
                                        {
                                            "system": "http://terminology.hl7.org/CodeSystem/measure-population",
                                            "code": "denominator",
                                            "display": "Denominator"
                                        }
                                    ]
                                },
                                "count": 0
                            },
                            {
                                "id": "874052F5-D503-4C5C-A436-05900B0967E3",
                                "extension": [
                                    {
                                        "url": "http://hl7.org/fhir/5.0/StructureDefinition/extension-MeasureReport.population.description",
                                        "valueString": "Inpatient hospitalizations for patients admitted for elective carotid intervention. This exclusion is implicitly modeled by only including non-elective hospitalizations.\nInpatient hospitalizations for patients discharged to another hospital\nInpatient hospitalizations for patients who left against medical advice\nInpatient hospitalizations for patients who expired\nInpatient hospitalizations for patients discharged to home for hospice care\nInpatient hospitalizations for patients discharged to a health care facility for hospice care\nInpatient hospitalizations for patients with comfort measures documented"
                                    }
                                ],
                                "code": {
                                    "coding": [
                                        {
                                            "system": "http://terminology.hl7.org/CodeSystem/measure-population",
                                            "code": "denominator-exclusion",
                                            "display": "Denominator Exclusion"
                                        }
                                    ]
                                },
                                "count": 0
                            },
                            {
                                "id": "0BFADF64-121B-47BA-A02F-EE5F433B8C7D",
                                "extension": [
                                    {
                                        "url": "http://hl7.org/fhir/5.0/StructureDefinition/extension-MeasureReport.population.description",
                                        "valueString": "Inpatient hospitalizations for patients with a documented reason for not prescribing antithrombotic therapy at discharge.\nInpatient hospitalizations for patients who receive Ticagrelor or Prasugrel as an antithrombotic therapy at discharge."
                                    }
                                ],
                                "code": {
                                    "coding": [
                                        {
                                            "system": "http://terminology.hl7.org/CodeSystem/measure-population",
                                            "code": "denominator-exception",
                                            "display": "Denominator Exception"
                                        }
                                    ]
                                },
                                "count": 0
                            },
                            {
                                "id": "1AA9F20D-3A56-400C-A53E-0D8CE2BC6C83",
                                "extension": [
                                    {
                                        "url": "http://hl7.org/fhir/5.0/StructureDefinition/extension-MeasureReport.population.description",
                                        "valueString": "Inpatient hospitalizations for patients prescribed or continuing to take antithrombotic therapy at hospital discharge"
                                    }
                                ],
                                "code": {
                                    "coding": [
                                        {
                                            "system": "http://terminology.hl7.org/CodeSystem/measure-population",
                                            "code": "numerator",
                                            "display": "Numerator"
                                        }
                                    ]
                                },
                                "count": 0
                            }
                        ]
                    }
                ],
                "evaluatedResource": [
                    {
                        "reference": "Patient/ineligible-0"
                    }
                ]
            }
        },
        {
            "resource": {
                "resourceType": "Patient",
                "id": "ineligible-0",
                "meta": {
                    "versionId": "5",
                    "lastUpdated": "2023-02-22T22:22:53.918-07:00",
                    "source": "#1n9AtE63oRQ33BoZ",
                    "profile": [
                        "http://hl7.org/fhir/us/qicore/StructureDefinition/qicore-patient"
                    ],
                    "tag": [
                        {
                            "system": "http://cms.gov/fhir/mct/tags/Location",
                            "display": "Location/local-test"
                        }
                    ]
                },
                "text": {
                    "status": "generated",
                    "div": "<div xmlns=\"http://www.w3.org/1999/xhtml\"><div class=\"hapiHeaderText\">Ellis <b>CORTEZ </b></div><table class=\"hapiPropertyTable\"><tbody><tr><td>Identifier</td><td>12345</td></tr><tr><td>Address</td><td><span>10 Ninth Ramp </span><br/><span>Glenarden </span><span>ID </span></td></tr><tr><td>Date of birth</td><td><span>18 May 1974</span></td></tr></tbody></table></div>"
                },
                "contained": [
                    {
                        "resourceType": "OperationOutcome",
                        "id": "370979f5-3cce-47d4-8471-885319962066",
                        "issue": [
                            {
                                "severity": "error",
                                "code": "processing",
                                "details": {
                                    "coding": [
                                        {
                                            "system": "http://hl7.org/fhir/java-core-messageId",
                                            "code": "Terminology_PassThrough_TX_Message"
                                        }
                                    ]
                                },
                                "diagnostics": "Unknown code 'urn:oid:2.16.840.1.113883.6.238#2135-1' for 'urn:oid:2.16.840.1.113883.6.238#2135-1'",
                                "location": [
                                    "Patient.extension[1].extension[0].value.ofType(Coding)",
                                    "Line 1, Col 1220"
                                ]
                            }
                        ]
                    }
                ],
                "extension": [
                    {
                        "url": "http://hl7.org/fhir/us/core/StructureDefinition/us-core-race",
                        "extension": [
                            {
                                "url": "ombCategory",
                                "valueCoding": {
                                    "system": "urn:oid:2.16.840.1.113883.6.238",
                                    "code": "2076-8",
                                    "display": "Native Hawaiian or Other Pacific Islander"
                                }
                            },
                            {
                                "url": "text",
                                "valueString": "Native Hawaiian or Other Pacific Islander"
                            }
                        ]
                    },
                    {
                        "url": "http://hl7.org/fhir/us/core/StructureDefinition/us-core-ethnicity",
                        "extension": [
                            {
                                "url": "ombCategory",
                                "valueCoding": {
                                    "system": "urn:oid:2.16.840.1.113883.6.238",
                                    "code": "2135-1",
                                    "display": "Hispanic or Latino"
                                }
                            },
                            {
                                "url": "text",
                                "valueString": "Hispanic or Latino"
                            }
                        ]
                    },
                    {
                        "url": "http://cms.gov/fhir/mct/StructureDefinition/validation-result",
                        "valueReference": {
                            "reference": "#370979f5-3cce-47d4-8471-885319962066"
                        }
                    }
                ],
                "identifier": [
                    {
                        "system": "urn:oid:1.2.36.146.595.217.0.1",
                        "value": "12345"
                    }
                ],
                "name": [
                    {
                        "use": "official",
                        "family": "Cortez",
                        "given": [
                            "Ellis"
                        ]
                    }
                ],
                "telecom": [
                    {
                        "system": "email",
                        "value": "Ellis.Cortez@gmail.com",
                        "use": "home"
                    }
                ],
                "gender": "male",
                "birthDate": "1974-05-18",
                "deceasedBoolean": false,
                "address": [
                    {
                        "line": [
                            "10 Ninth Ramp"
                        ],
                        "city": "Glenarden",
                        "state": "ID",
                        "postalCode": "77490",
                        "period": {
                            "start": "2022-01-01T00:00:00.000-07:00",
                            "end": "2022-03-31T00:00:00.000-06:00"
                        }
                    }
                ],
                "communication": [
                    {
                        "language": {
                            "coding": [
                                {
                                    "system": "urn:ietf:bcp:47",
                                    "code": "en-US"
                                }
                            ]
                        }
                    }
                ]
            }
        },
        {
            "resource": {
                "resourceType": "OperationOutcome",
                "issue": [
                    {
                        "severity": "information",
                        "code": "informational",
                        "diagnostics": "The patient: Patient/ineligible-0 does not satisfy the data requirement for resource: Condition with path(s): [] in the following valueset(s): []"
                    },
                    {
                        "severity": "information",
                        "code": "informational",
                        "diagnostics": "The patient: Patient/ineligible-0 does not satisfy the data requirement for resource: MedicationRequest with path(s): [medication] in the following valueset(s): [http://cts.nlm.nih.gov/fhir/ValueSet/2.16.840.1.113762.1.4.1110.62, http://cts.nlm.nih.gov/fhir/ValueSet/2.16.840.1.113762.1.4.1110.62, http://cts.nlm.nih.gov/fhir/ValueSet/2.16.840.1.113762.1.4.1110.62, http://cts.nlm.nih.gov/fhir/ValueSet/2.16.840.1.113762.1.4.1110.62, http://cts.nlm.nih.gov/fhir/ValueSet/2.16.840.1.113762.1.4.1110.52, http://cts.nlm.nih.gov/fhir/ValueSet/2.16.840.1.113762.1.4.1110.52, http://cts.nlm.nih.gov/fhir/ValueSet/2.16.840.1.113762.1.4.1110.62]"
                    },
                    {
                        "severity": "information",
                        "code": "informational",
                        "diagnostics": "The patient: Patient/ineligible-0 does not satisfy the data requirement for resource: Procedure with path(s): [code] in the following valueset(s): [http://cts.nlm.nih.gov/fhir/ValueSet/1.3.6.1.4.1.33895.1.3.0.45, http://cts.nlm.nih.gov/fhir/ValueSet/1.3.6.1.4.1.33895.1.3.0.45, http://cts.nlm.nih.gov/fhir/ValueSet/1.3.6.1.4.1.33895.1.3.0.45]"
                    },
                    {
                        "severity": "information",
                        "code": "informational",
                        "diagnostics": "The patient: Patient/ineligible-0 does not satisfy the data requirement for resource: Encounter with path(s): [type] in the following valueset(s): [http://cts.nlm.nih.gov/fhir/ValueSet/2.16.840.1.113883.3.117.1.7.1.424, http://cts.nlm.nih.gov/fhir/ValueSet/2.16.840.1.113883.3.117.1.7.1.424, http://cts.nlm.nih.gov/fhir/ValueSet/2.16.840.1.113762.1.4.1111.143, http://cts.nlm.nih.gov/fhir/ValueSet/2.16.840.1.113883.3.117.1.7.1.292, http://cts.nlm.nih.gov/fhir/ValueSet/2.16.840.1.113762.1.4.1111.143, http://cts.nlm.nih.gov/fhir/ValueSet/2.16.840.1.113883.3.117.1.7.1.292]"
                    },
                    {
                        "severity": "information",
                        "code": "informational",
                        "diagnostics": "The patient: Patient/ineligible-0 does not satisfy the data requirement for resource: Coverage with path(s): [type] in the following valueset(s): [http://cts.nlm.nih.gov/fhir/ValueSet/2.16.840.1.114222.4.11.3591, http://cts.nlm.nih.gov/fhir/ValueSet/2.16.840.1.114222.4.11.3591]"
                    },
                    {
                        "severity": "information",
                        "code": "informational",
                        "diagnostics": "The patient: Patient/ineligible-0 does not satisfy the data requirement for resource: ServiceRequest with path(s): [type] in the following valueset(s): [http://cts.nlm.nih.gov/fhir/ValueSet/1.3.6.1.4.1.33895.1.3.0.45, http://cts.nlm.nih.gov/fhir/ValueSet/1.3.6.1.4.1.33895.1.3.0.45, http://cts.nlm.nih.gov/fhir/ValueSet/1.3.6.1.4.1.33895.1.3.0.45]"
                    }
                ]
            }
        }
    ]
}