{
    "resourceType": "Bundle",
    "type": "collection",
    "entry": [
        {
            "resource": {
                "resourceType": "MeasureReport",
                "language": "en",
                "contained": [
                    {
                        "resourceType": "Observation",
                        "id": "0030a206-84ac-4b63-86bb-2f0480fa6497",
                        "extension": [
                            {
                                "url": "http://hl7.org/fhir/StructureDefinition/cqf-measureInfo",
                                "extension": [
                                    {
                                        "url": "measure",
                                        "valueCanonical": "http://ecqi.healthit.gov/ecqms/Measure/DischargedonAntithromboticTherapyQICore4"
                                    }
                                ]
                            }
                        ],
                        "status": "final",
                        "code": {
                            "coding": [
                                {
                                    "system": "http://terminology.hl7.org/CodeSystem/measure-data-usage",
                                    "code": "supplemental-data"
                                },
                                {
                                    "system": "http://terminology.hl7.org/CodeSystem/measure-supplemental-data-example",
                                    "code": "ethnicity",
                                    "display": "Ethnicity"
                                }
                            ]
                        },
                        "valueCodeableConcept": {
                            "coding": [
                                {
                                    "code": "Concept {\n\tCode { code: 2135-1, system: urn:oid:2.16.840.1.113883.6.238, version: null, display: Hispanic or Latino }\n}"
                                }
                            ]
                        }
                    },
                    {
                        "resourceType": "Observation",
                        "id": "67656e16-e97d-49c1-8e59-2bb8a253d081",
                        "extension": [
                            {
                                "url": "http://hl7.org/fhir/StructureDefinition/cqf-measureInfo",
                                "extension": [
                                    {
                                        "url": "measure",
                                        "valueCanonical": "http://ecqi.healthit.gov/ecqms/Measure/DischargedonAntithromboticTherapyQICore4"
                                    }
                                ]
                            }
                        ],
                        "status": "final",
                        "code": {
                            "coding": [
                                {
                                    "system": "http://terminology.hl7.org/CodeSystem/measure-data-usage",
                                    "code": "supplemental-data"
                                },
                                {
                                    "system": "http://terminology.hl7.org/CodeSystem/measure-supplemental-data-example",
                                    "code": "gender",
                                    "display": "Gender"
                                }
                            ]
                        },
                        "valueCodeableConcept": {
                            "coding": [
                                {
                                    "code": "M"
                                }
                            ]
                        }
                    }
                ],
                "extension": [
                    {
                        "url": "http://hl7.org/fhir/5.0/StructureDefinition/extension-MeasureReport.population.description",
                        "valueString": "Ischemic stroke patients prescribed or continuing to take antithrombotic therapy at hospital discharge"
                    },
                    {
                        "url": "http://hl7.org/fhir/5.0/StructureDefinition/extension-MeasureReport.supplementalDataElement.reference",
                        "valueReference": {
                            "reference": "#0030a206-84ac-4b63-86bb-2f0480fa6497"
                        }
                    },
                    {
                        "url": "http://hl7.org/fhir/5.0/StructureDefinition/extension-MeasureReport.supplementalDataElement.reference",
                        "valueReference": {
                            "reference": "#67656e16-e97d-49c1-8e59-2bb8a253d081"
                        }
                    },
                    {
                        "url": "http://cms.gov/fhir/mct/StructureDefinition/measurereport-location",
                        "valueReference": {
                            "reference": "Location/local-test"
                        }
                    }
                ],
                "status": "complete",
                "type": "individual",
                "measure": "http://ecqi.healthit.gov/ecqms/Measure/DischargedonAntithromboticTherapyQICore4",
                "subject": {
                    "reference": "Patient/in-numerator-0"
                },
                "date": "2023-02-22T22:27:27-07:00",
                "period": {
                    "start": "2022-01-01T00:00:00-07:00",
                    "end": "2022-03-31T00:00:00-06:00"
                },
                "improvementNotation": {
                    "coding": [
                        {
                            "system": "http://terminology.hl7.org/CodeSystem/measure-improvement-notation",
                            "code": "increase"
                        }
                    ]
                },
                "group": [
                    {
                        "extension": [
                            {
                                "url": "http://hl7.org/fhir/5.0/StructureDefinition/extension-MeasureReport.population.description",
                                "valueString": "Ischemic stroke patients prescribed or continuing to take antithrombotic therapy at hospital discharge"
                            }
                        ],
                        "population": [
                            {
                                "id": "3461E500-1396-4E0C-B6C7-5B5C7B024765",
                                "extension": [
                                    {
                                        "url": "http://hl7.org/fhir/5.0/StructureDefinition/extension-MeasureReport.population.description",
                                        "valueString": "Inpatient hospitalizations for patients age 18 and older, discharged from inpatient care (non-elective admissions) with a principal diagnosis of ischemic or hemorrhagic stroke and a length of stay less than or equal to 120 days that ends during the measurement period"
                                    }
                                ],
                                "code": {
                                    "coding": [
                                        {
                                            "system": "http://terminology.hl7.org/CodeSystem/measure-population",
                                            "code": "initial-population",
                                            "display": "Initial Population"
                                        }
                                    ]
                                },
                                "count": 1
                            },
                            {
                                "id": "D8C1DE16-6CC9-4B90-B1A9-E635665B36CA",
                                "extension": [
                                    {
                                        "url": "http://hl7.org/fhir/5.0/StructureDefinition/extension-MeasureReport.population.description",
                                        "valueString": "Inpatient hospitalizations for patients with a principal diagnosis of Ischemic stroke"
                                    }
                                ],
                                "code": {
                                    "coding": [
                                        {
                                            "system": "http://terminology.hl7.org/CodeSystem/measure-population",
                                            "code": "denominator",
                                            "display": "Denominator"
                                        }
                                    ]
                                },
                                "count": 1
                            },
                            {
                                "id": "874052F5-D503-4C5C-A436-05900B0967E3",
                                "extension": [
                                    {
                                        "url": "http://hl7.org/fhir/5.0/StructureDefinition/extension-MeasureReport.population.description",
                                        "valueString": "Inpatient hospitalizations for patients admitted for elective carotid intervention. This exclusion is implicitly modeled by only including non-elective hospitalizations.\nInpatient hospitalizations for patients discharged to another hospital\nInpatient hospitalizations for patients who left against medical advice\nInpatient hospitalizations for patients who expired\nInpatient hospitalizations for patients discharged to home for hospice care\nInpatient hospitalizations for patients discharged to a health care facility for hospice care\nInpatient hospitalizations for patients with comfort measures documented"
                                    }
                                ],
                                "code": {
                                    "coding": [
                                        {
                                            "system": "http://terminology.hl7.org/CodeSystem/measure-population",
                                            "code": "denominator-exclusion",
                                            "display": "Denominator Exclusion"
                                        }
                                    ]
                                },
                                "count": 0
                            },
                            {
                                "id": "0BFADF64-121B-47BA-A02F-EE5F433B8C7D",
                                "extension": [
                                    {
                                        "url": "http://hl7.org/fhir/5.0/StructureDefinition/extension-MeasureReport.population.description",
                                        "valueString": "Inpatient hospitalizations for patients with a documented reason for not prescribing antithrombotic therapy at discharge.\nInpatient hospitalizations for patients who receive Ticagrelor or Prasugrel as an antithrombotic therapy at discharge."
                                    }
                                ],
                                "code": {
                                    "coding": [
                                        {
                                            "system": "http://terminology.hl7.org/CodeSystem/measure-population",
                                            "code": "denominator-exception",
                                            "display": "Denominator Exception"
                                        }
                                    ]
                                },
                                "count": 0
                            },
                            {
                                "id": "1AA9F20D-3A56-400C-A53E-0D8CE2BC6C83",
                                "extension": [
                                    {
                                        "url": "http://hl7.org/fhir/5.0/StructureDefinition/extension-MeasureReport.population.description",
                                        "valueString": "Inpatient hospitalizations for patients prescribed or continuing to take antithrombotic therapy at hospital discharge"
                                    }
                                ],
                                "code": {
                                    "coding": [
                                        {
                                            "system": "http://terminology.hl7.org/CodeSystem/measure-population",
                                            "code": "numerator",
                                            "display": "Numerator"
                                        }
                                    ]
                                },
                                "count": 1
                            }
                        ],
                        "measureScore": {
                            "value": 1.0
                        }
                    }
                ],
                "evaluatedResource": [
                    {
                        "extension": [
                            {
                                "url": "http://hl7.org/fhir/us/davinci-deqm/StructureDefinition/extension-criteriaReference",
                                "valueString": "3461E500-1396-4E0C-B6C7-5B5C7B024765"
                            },
                            {
                                "url": "http://hl7.org/fhir/us/davinci-deqm/StructureDefinition/extension-criteriaReference",
                                "valueString": "D8C1DE16-6CC9-4B90-B1A9-E635665B36CA"
                            },
                            {
                                "url": "http://hl7.org/fhir/us/davinci-deqm/StructureDefinition/extension-criteriaReference",
                                "valueString": "874052F5-D503-4C5C-A436-05900B0967E3"
                            },
                            {
                                "url": "http://hl7.org/fhir/us/davinci-deqm/StructureDefinition/extension-criteriaReference",
                                "valueString": "1AA9F20D-3A56-400C-A53E-0D8CE2BC6C83"
                            }
                        ],
                        "reference": "Condition/in-numerator-0"
                    },
                    {
                        "extension": [
                            {
                                "url": "http://hl7.org/fhir/us/davinci-deqm/StructureDefinition/extension-criteriaReference",
                                "valueString": "1AA9F20D-3A56-400C-A53E-0D8CE2BC6C83"
                            }
                        ],
                        "reference": "MedicationRequest/in-numerator-0"
                    },
                    {
                        "extension": [
                            {
                                "url": "http://hl7.org/fhir/us/davinci-deqm/StructureDefinition/extension-criteriaReference",
                                "valueString": "3461E500-1396-4E0C-B6C7-5B5C7B024765"
                            },
                            {
                                "url": "http://hl7.org/fhir/us/davinci-deqm/StructureDefinition/extension-criteriaReference",
                                "valueString": "D8C1DE16-6CC9-4B90-B1A9-E635665B36CA"
                            },
                            {
                                "url": "http://hl7.org/fhir/us/davinci-deqm/StructureDefinition/extension-criteriaReference",
                                "valueString": "874052F5-D503-4C5C-A436-05900B0967E3"
                            },
                            {
                                "url": "http://hl7.org/fhir/us/davinci-deqm/StructureDefinition/extension-criteriaReference",
                                "valueString": "1AA9F20D-3A56-400C-A53E-0D8CE2BC6C83"
                            }
                        ],
                        "reference": "Patient/in-numerator-0"
                    },
                    {
                        "extension": [
                            {
                                "url": "http://hl7.org/fhir/us/davinci-deqm/StructureDefinition/extension-criteriaReference",
                                "valueString": "3461E500-1396-4E0C-B6C7-5B5C7B024765"
                            },
                            {
                                "url": "http://hl7.org/fhir/us/davinci-deqm/StructureDefinition/extension-criteriaReference",
                                "valueString": "D8C1DE16-6CC9-4B90-B1A9-E635665B36CA"
                            },
                            {
                                "url": "http://hl7.org/fhir/us/davinci-deqm/StructureDefinition/extension-criteriaReference",
                                "valueString": "874052F5-D503-4C5C-A436-05900B0967E3"
                            },
                            {
                                "url": "http://hl7.org/fhir/us/davinci-deqm/StructureDefinition/extension-criteriaReference",
                                "valueString": "1AA9F20D-3A56-400C-A53E-0D8CE2BC6C83"
                            }
                        ],
                        "reference": "Encounter/in-numerator-0"
                    }
                ]
            }
        },
        {
            "resource": {
                "resourceType": "Condition",
                "id": "in-numerator-0",
                "meta": {
                    "versionId": "5",
                    "lastUpdated": "2023-02-22T22:22:53.918-07:00",
                    "source": "#1n9AtE63oRQ33BoZ",
                    "profile": [
                        "http://hl7.org/fhir/us/qicore/StructureDefinition/qicore-condition"
                    ],
                    "tag": [
                        {
                            "system": "http://cms.gov/fhir/mct/tags/Location",
                            "display": "Location/local-test"
                        }
                    ]
                },
                "clinicalStatus": {
                    "coding": [
                        {
                            "system": "http://terminology.hl7.org/CodeSystem/condition-clinical",
                            "code": "active"
                        }
                    ]
                },
                "verificationStatus": {
                    "coding": [
                        {
                            "system": "http://terminology.hl7.org/CodeSystem/condition-ver-status",
                            "code": "confirmed"
                        }
                    ]
                },
                "category": [
                    {
                        "coding": [
                            {
                                "system": "http://terminology.hl7.org/CodeSystem/condition-category",
                                "code": "encounter-diagnosis"
                            }
                        ]
                    }
                ],
                "code": {
                    "coding": [
                        {
                            "system": "http://hl7.org/fhir/sid/icd-10-cm",
                            "code": "I63.322"
                        }
                    ]
                },
                "subject": {
                    "reference": "Patient/in-numerator-0"
                },
                "encounter": {
                    "reference": "Encounter/in-numerator-0"
                }
            }
        },
        {
            "resource": {
                "resourceType": "MedicationRequest",
                "id": "in-numerator-0",
                "meta": {
                    "versionId": "5",
                    "lastUpdated": "2023-02-22T22:22:53.918-07:00",
                    "source": "#1n9AtE63oRQ33BoZ",
                    "profile": [
                        "http://hl7.org/fhir/us/qicore/StructureDefinition/qicore-medicationrequest"
                    ],
                    "tag": [
                        {
                            "system": "http://cms.gov/fhir/mct/tags/Location",
                            "display": "Location/local-test"
                        }
                    ]
                },
                "contained": [
                    {
                        "resourceType": "OperationOutcome",
                        "id": "68338ae6-7d00-40cf-b9cb-ce21b95e327b",
                        "issue": [
                            {
                                "severity": "error",
                                "code": "processing",
                                "details": {
                                    "coding": [
                                        {
                                            "system": "http://hl7.org/fhir/java-core-messageId",
                                            "code": "Validation_VAL_Profile_Minimum"
                                        }
                                    ]
                                },
                                "diagnostics": "MedicationRequest.requester: minimum required = 1, but only found 0 (from http://hl7.org/fhir/us/qicore/StructureDefinition/qicore-medicationrequest)",
                                "location": [
                                    "MedicationRequest",
                                    "Line 1, Col 2"
                                ]
                            },
                            {
                                "severity": "warning",
                                "code": "processing",
                                "details": {
                                    "coding": [
                                        {
                                            "system": "http://hl7.org/fhir/java-core-messageId",
                                            "code": "Terminology_TX_NoValid_2_CC"
                                        }
                                    ]
                                },
                                "diagnostics": "None of the codings provided are in the value set 'US Core Medication Codes (RxNorm)' (http://hl7.org/fhir/us/core/ValueSet/us-core-medication-codes), and a coding should come from this value set unless it has no suitable code (note that the validator cannot judge what is suitable) (codes = http://www.nlm.nih.gov/research/umls/rxnorm#854241)",
                                "location": [
                                    "MedicationRequest.medication.ofType(CodeableConcept)",
                                    "Line 1, Col 557"
                                ]
                            }
                        ]
                    }
                ],
                "extension": [
                    {
                        "url": "http://cms.gov/fhir/mct/StructureDefinition/validation-result",
                        "valueReference": {
                            "reference": "#68338ae6-7d00-40cf-b9cb-ce21b95e327b"
                        }
                    }
                ],
                "status": "active",
                "intent": "order",
                "category": [
                    {
                        "coding": [
                            {
                                "system": "http://terminology.hl7.org/CodeSystem/medicationrequest-category",
                                "code": "community"
                            }
                        ]
                    }
                ],
                "doNotPerform": false,
                "medicationCodeableConcept": {
                    "coding": [
                        {
                            "system": "http://www.nlm.nih.gov/research/umls/rxnorm",
                            "code": "854241"
                        }
                    ]
                },
                "subject": {
                    "reference": "Patient/in-numerator-0"
                },
                "encounter": {
                    "reference": "Encounter/in-numerator-0"
                },
                "authoredOn": "2021-09-22T12:43:08.148-06:00"
            }
        },
        {
            "resource": {
                "resourceType": "Patient",
                "id": "in-numerator-0",
                "meta": {
                    "versionId": "5",
                    "lastUpdated": "2023-02-22T22:22:53.918-07:00",
                    "source": "#1n9AtE63oRQ33BoZ",
                    "profile": [
                        "http://hl7.org/fhir/us/qicore/StructureDefinition/qicore-patient"
                    ],
                    "tag": [
                        {
                            "system": "http://cms.gov/fhir/mct/tags/Location",
                            "display": "Location/local-test"
                        }
                    ]
                },
                "text": {
                    "status": "generated",
                    "div": "<div xmlns=\"http://www.w3.org/1999/xhtml\"><div class=\"hapiHeaderText\">Bernard <b>CARLSON </b></div><table class=\"hapiPropertyTable\"><tbody><tr><td>Identifier</td><td>12345</td></tr><tr><td>Address</td><td><span>10 Ninth Ramp </span><br/><span>Glenarden </span><span>ID </span></td></tr><tr><td>Date of birth</td><td><span>05 November 1959</span></td></tr></tbody></table></div>"
                },
                "contained": [
                    {
                        "resourceType": "OperationOutcome",
                        "id": "451dba1d-4104-4e74-82b4-c0e37645a6f0",
                        "issue": [
                            {
                                "severity": "error",
                                "code": "processing",
                                "details": {
                                    "coding": [
                                        {
                                            "system": "http://hl7.org/fhir/java-core-messageId",
                                            "code": "Terminology_PassThrough_TX_Message"
                                        }
                                    ]
                                },
                                "diagnostics": "Unknown code 'urn:oid:2.16.840.1.113883.6.238#2135-1' for 'urn:oid:2.16.840.1.113883.6.238#2135-1'",
                                "location": [
                                    "Patient.extension[1].extension[0].value.ofType(Coding)",
                                    "Line 1, Col 1198"
                                ]
                            }
                        ]
                    }
                ],
                "extension": [
                    {
                        "url": "http://hl7.org/fhir/us/core/StructureDefinition/us-core-race",
                        "extension": [
                            {
                                "url": "ombCategory",
                                "valueCoding": {
                                    "system": "urn:oid:2.16.840.1.113883.6.238",
                                    "code": "2054-5",
                                    "display": "Black or African American"
                                }
                            },
                            {
                                "url": "text",
                                "valueString": "Black or African American"
                            }
                        ]
                    },
                    {
                        "url": "http://hl7.org/fhir/us/core/StructureDefinition/us-core-ethnicity",
                        "extension": [
                            {
                                "url": "ombCategory",
                                "valueCoding": {
                                    "system": "urn:oid:2.16.840.1.113883.6.238",
                                    "code": "2135-1",
                                    "display": "Hispanic or Latino"
                                }
                            },
                            {
                                "url": "text",
                                "valueString": "Hispanic or Latino"
                            }
                        ]
                    },
                    {
                        "url": "http://cms.gov/fhir/mct/StructureDefinition/validation-result",
                        "valueReference": {
                            "reference": "#451dba1d-4104-4e74-82b4-c0e37645a6f0"
                        }
                    }
                ],
                "identifier": [
                    {
                        "system": "urn:oid:1.2.36.146.595.217.0.1",
                        "value": "12345"
                    }
                ],
                "name": [
                    {
                        "use": "official",
                        "family": "Carlson",
                        "given": [
                            "Bernard"
                        ]
                    }
                ],
                "telecom": [
                    {
                        "system": "email",
                        "value": "Bernard.Carlson@gmail.com",
                        "use": "home"
                    }
                ],
                "gender": "male",
                "birthDate": "1959-11-05",
                "deceasedBoolean": false,
                "address": [
                    {
                        "line": [
                            "10 Ninth Ramp"
                        ],
                        "city": "Glenarden",
                        "state": "ID",
                        "postalCode": "77490",
                        "period": {
                            "start": "2022-01-01T00:00:00.000-07:00",
                            "end": "2022-03-31T00:00:00.000-06:00"
                        }
                    }
                ],
                "communication": [
                    {
                        "language": {
                            "coding": [
                                {
                                    "system": "urn:ietf:bcp:47",
                                    "code": "en-US"
                                }
                            ]
                        }
                    }
                ]
            }
        },
        {
            "resource": {
                "resourceType": "Encounter",
                "id": "in-numerator-0",
                "meta": {
                    "versionId": "5",
                    "lastUpdated": "2023-02-22T22:22:53.918-07:00",
                    "source": "#1n9AtE63oRQ33BoZ",
                    "profile": [
                        "http://hl7.org/fhir/us/qicore/StructureDefinition/qicore-encounter"
                    ],
                    "tag": [
                        {
                            "system": "http://cms.gov/fhir/mct/tags/Location",
                            "display": "Location/local-test"
                        }
                    ]
                },
                "status": "finished",
                "class": {
                    "system": "http://terminology.hl7.org/CodeSystem/v3-ActCode",
                    "code": "IMP"
                },
                "type": [
                    {
                        "coding": [
                            {
                                "system": "http://snomed.info/sct",
                                "code": "183452005"
                            }
                        ]
                    }
                ],
                "subject": {
                    "reference": "Patient/in-numerator-0"
                },
                "period": {
                    "start": "2021-09-22T12:43:08.148-06:00",
                    "end": "2022-01-03T11:43:08.148-07:00"
                },
                "diagnosis": [
                    {
                        "condition": {
                            "reference": "Condition/in-numerator-0"
                        },
                        "rank": 1
                    }
                ]
            }
        },
        {
            "resource": {
                "resourceType": "OperationOutcome",
                "issue": [
                    {
                        "severity": "information",
                        "code": "informational",
                        "diagnostics": "The patient: Patient/in-numerator-0 does not satisfy the data requirement for resource: Procedure with path(s): [code] in the following valueset(s): [http://cts.nlm.nih.gov/fhir/ValueSet/1.3.6.1.4.1.33895.1.3.0.45, http://cts.nlm.nih.gov/fhir/ValueSet/1.3.6.1.4.1.33895.1.3.0.45, http://cts.nlm.nih.gov/fhir/ValueSet/1.3.6.1.4.1.33895.1.3.0.45]"
                    },
                    {
                        "severity": "information",
                        "code": "informational",
                        "diagnostics": "The patient: Patient/in-numerator-0 does not satisfy the data requirement for resource: Coverage with path(s): [type] in the following valueset(s): [http://cts.nlm.nih.gov/fhir/ValueSet/2.16.840.1.114222.4.11.3591, http://cts.nlm.nih.gov/fhir/ValueSet/2.16.840.1.114222.4.11.3591]"
                    },
                    {
                        "severity": "information",
                        "code": "informational",
                        "diagnostics": "The patient: Patient/in-numerator-0 does not satisfy the data requirement for resource: ServiceRequest with path(s): [type] in the following valueset(s): [http://cts.nlm.nih.gov/fhir/ValueSet/1.3.6.1.4.1.33895.1.3.0.45, http://cts.nlm.nih.gov/fhir/ValueSet/1.3.6.1.4.1.33895.1.3.0.45, http://cts.nlm.nih.gov/fhir/ValueSet/1.3.6.1.4.1.33895.1.3.0.45]"
                    }
                ]
            }
        }
    ]
}