{
  "resourceType": "Bundle",
  "id": "tests-MedicationRequest-bundle",
  "type": "transaction",
  "entry": [ {
    "resource": {
      "resourceType": "MedicationRequest",
      "id": "cmd-example",
      "meta": {
        "profile": [ "http://hl7.org/fhir/us/qicore/StructureDefinition/qicore-medicationrequest" ]
      },
      "text": {
        "status": "generated",
        "div": "<div xmlns=\"http://www.w3.org/1999/xhtml\"><p><b>Generated Narrative</b></p><div style=\"display: inline-block; background-color: #d9e0e7; padding: 6px; margin: 4px; border: 1px solid #8da1b4; border-radius: 5px; line-height: 60%\"><p style=\"margin-bottom: 0px\">Resource &quot;cmd-example&quot; </p><p style=\"margin-bottom: 0px\">Profile: <a href=\"StructureDefinition-qicore-medicationrequest.html\">QICoreMedicationRequest</a></p></div><p><b>status</b>: active</p><p><b>intent</b>: order</p><p><b>medication</b>: <a href=\"Medication-example.html\">Medication/example</a></p><p><b>subject</b>: <a href=\"Patient-example.html\">Patient/example</a> &quot; CHALMERS&quot;</p><p><b>authoredOn</b>: 2015-03-25 07:32:52-0500</p><p><b>requester</b>: <a href=\"Practitioner-example.html\">Practitioner/example</a> &quot; CAREFUL&quot;</p><h3>DispenseRequests</h3><table class=\"grid\"><tr><td>-</td><td><b>NumberOfRepeatsAllowed</b></td><td><b>Quantity</b></td></tr><tr><td>*</td><td>2</td><td>100 ml<span style=\"background: LightGoldenRodYellow\"> (Details: UCUM code ml = 'ml')</span></td></tr></table></div>"
      },
      "status": "active",
      "intent": "order",
      "medicationReference": {
        "reference": "Medication/example"
      },
      "subject": {
        "reference": "Patient/example"
      },
      "authoredOn": "2015-03-25T19:32:52-05:00",
      "requester": {
        "reference": "Practitioner/example"
      },
      "dosageInstruction": [ {
        "timing": {
          "repeat": {
            "frequency": 3,
            "period": 1,
            "periodUnit": "d"
          }
        },
        "site": {
          "coding": [ {
            "system": "http://snomed.info/sct",
            "code": "447964005"
          } ]
        },
        "route": {
          "coding": [ {
            "system": "http://snomed.info/sct",
            "code": "394899003",
            "display": "oral administration of treatment"
          } ]
        },
        "doseAndRate": [ {
          "type": {
            "coding": [ {
              "system": "http://terminology.hl7.org/CodeSystem/dose-rate-type",
              "code": "ordered",
              "display": "Ordered"
            } ]
          },
          "doseQuantity": {
            "value": 5,
            "unit": "ml",
            "system": "http://unitsofmeasure.org",
            "code": "ml"
          }
        } ]
      } ],
      "dispenseRequest": {
        "numberOfRepeatsAllowed": 2,
        "quantity": {
          "value": 100,
          "unit": "ml",
          "system": "http://unitsofmeasure.org",
          "code": "ml"
        }
      }
    },
    "request": {
      "method": "PUT",
      "url": "MedicationRequest/cmd-example"
    }
  }, {
    "resource": {
      "resourceType": "MedicationRequest",
      "id": "example",
      "meta": {
        "profile": [ "http://hl7.org/fhir/us/qicore/StructureDefinition/qicore-medicationrequest" ]
      },
      "text": {
        "status": "generated",
        "div": "<div xmlns=\"http://www.w3.org/1999/xhtml\"><p><b>Generated Narrative</b></p><div style=\"display: inline-block; background-color: #d9e0e7; padding: 6px; margin: 4px; border: 1px solid #8da1b4; border-radius: 5px; line-height: 60%\"><p style=\"margin-bottom: 0px\">Resource &quot;example&quot; </p><p style=\"margin-bottom: 0px\">Profile: <a href=\"StructureDefinition-qicore-medicationrequest.html\">QICoreMedicationRequest</a></p></div><p><b>status</b>: active</p><p><b>intent</b>: order</p><p><b>medication</b>: <a href=\"Medication-example.html\">Medication/example</a></p><p><b>subject</b>: <a href=\"Patient-example.html\">Patient/example</a> &quot; CHALMERS&quot;</p><p><b>authoredOn</b>: 2015-03-25 07:32:52-0500</p><p><b>requester</b>: <a href=\"Practitioner-example.html\">Practitioner/example</a> &quot; CAREFUL&quot;</p><h3>DispenseRequests</h3><table class=\"grid\"><tr><td>-</td><td><b>Quantity</b></td></tr><tr><td>*</td><td>100 ml<span style=\"background: LightGoldenRodYellow\"> (Details: UCUM code ml = 'ml')</span></td></tr></table></div>"
      },
      "status": "active",
      "intent": "order",
      "medicationReference": {
        "reference": "Medication/example"
      },
      "subject": {
        "reference": "Patient/example"
      },
      "authoredOn": "2015-03-25T19:32:52-05:00",
      "requester": {
        "reference": "Practitioner/example"
      },
      "dosageInstruction": [ {
        "timing": {
          "repeat": {
            "frequency": 3,
            "period": 1,
            "periodUnit": "d"
          }
        },
        "site": {
          "coding": [ {
            "system": "http://snomed.info/sct",
            "code": "447964005"
          } ]
        },
        "route": {
          "coding": [ {
            "system": "http://snomed.info/sct",
            "code": "394899003",
            "display": "oral administration of treatment"
          } ]
        },
        "doseAndRate": [ {
          "type": {
            "coding": [ {
              "system": "http://terminology.hl7.org/CodeSystem/dose-rate-type",
              "code": "ordered",
              "display": "Ordered"
            } ]
          },
          "doseQuantity": {
            "value": 5,
            "unit": "ml",
            "system": "http://unitsofmeasure.org",
            "code": "ml"
          }
        } ]
      } ],
      "dispenseRequest": {
        "quantity": {
          "value": 100,
          "unit": "ml",
          "system": "http://unitsofmeasure.org",
          "code": "ml"
        }
      }
    },
    "request": {
      "method": "PUT",
      "url": "MedicationRequest/example"
    }
  }, {
    "resource": {
      "resourceType": "MedicationRequest",
      "id": "negation-example-code",
      "meta": {
        "profile": [ "http://hl7.org/fhir/us/qicore/StructureDefinition/qicore-mednotrequested" ]
      },
      "text": {
        "status": "generated",
        "div": "<div xmlns=\"http://www.w3.org/1999/xhtml\"><p><b>Generated Narrative</b></p><div style=\"display: inline-block; background-color: #d9e0e7; padding: 6px; margin: 4px; border: 1px solid #8da1b4; border-radius: 5px; line-height: 60%\"><p style=\"margin-bottom: 0px\">Resource &quot;negation-example-code&quot; </p><p style=\"margin-bottom: 0px\">Profile: <a href=\"StructureDefinition-qicore-mednotrequested.html\">QICoreMedicationNotRequested</a></p></div><p><b>status</b>: completed</p><p><b>intent</b>: order</p><p><b>category</b>: Community <span style=\"background: LightGoldenRodYellow; margin: 4px; border: 1px solid khaki\"> (<a href=\"http://terminology.hl7.org/3.1.0/CodeSystem-medicationrequest-category.html\">MedicationRequest Category Codes</a>#community)</span></p><p><b>doNotPerform</b>: true</p><p><b>medication</b>: Deoxycortone <span style=\"background: LightGoldenRodYellow; margin: 4px; border: 1px solid khaki\"> (<a href=\"https://browser.ihtsdotools.org/\">SNOMED CT</a>#1336006)</span></p><p><b>subject</b>: <a href=\"Patient-example.html\">Patient/example</a> &quot; CHALMERS&quot;</p><p><b>authoredOn</b>: 2015-03-25 07:32:52-0500</p><p><b>requester</b>: <a href=\"Practitioner-example.html\">Practitioner/example</a> &quot; CAREFUL&quot;</p><p><b>reasonCode</b>: Drug treatment not indicated (situation) <span style=\"background: LightGoldenRodYellow; margin: 4px; border: 1px solid khaki\"> (<a href=\"https://browser.ihtsdotools.org/\">SNOMED CT</a>#183966005)</span></p></div>"
      },
      "status": "completed",
      "intent": "order",
      "category": [ {
        "coding": [ {
          "system": "http://terminology.hl7.org/CodeSystem/medicationrequest-category",
          "code": "community"
        } ]
      } ],
      "doNotPerform": true,
      "medicationCodeableConcept": {
        "coding": [ {
          "system": "http://snomed.info/sct",
          "code": "1336006",
          "display": "Deoxycortone"
        } ]
      },
      "subject": {
        "reference": "Patient/example"
      },
      "authoredOn": "2015-03-25T19:32:52-05:00",
      "requester": {
        "reference": "Practitioner/example"
      },
      "reasonCode": [ {
        "coding": [ {
          "system": "http://snomed.info/sct",
          "code": "183966005",
          "display": "Drug treatment not indicated (situation)"
        } ]
      } ]
    },
    "request": {
      "method": "PUT",
      "url": "MedicationRequest/negation-example-code"
    }
  }, {
    "resource": {
      "resourceType": "MedicationRequest",
      "id": "negation-example",
      "meta": {
        "profile": [ "http://hl7.org/fhir/us/qicore/StructureDefinition/qicore-mednotrequested" ]
      },
      "text": {
        "status": "generated",
        "div": "<div xmlns=\"http://www.w3.org/1999/xhtml\"><p><b>Generated Narrative</b></p><div style=\"display: inline-block; background-color: #d9e0e7; padding: 6px; margin: 4px; border: 1px solid #8da1b4; border-radius: 5px; line-height: 60%\"><p style=\"margin-bottom: 0px\">Resource &quot;negation-example&quot; </p><p style=\"margin-bottom: 0px\">Profile: <a href=\"StructureDefinition-qicore-mednotrequested.html\">QICoreMedicationNotRequested</a></p></div><p><b>status</b>: completed</p><p><b>intent</b>: order</p><p><b>category</b>: Community <span style=\"background: LightGoldenRodYellow; margin: 4px; border: 1px solid khaki\"> (<a href=\"http://terminology.hl7.org/3.1.0/CodeSystem-medicationrequest-category.html\">MedicationRequest Category Codes</a>#community)</span></p><p><b>doNotPerform</b>: true</p><p><b>medication</b>: Not Done Value Set: Low Dose Unfractionated Heparin for VTE Prophylaxis <span style=\"background: LightGoldenRodYellow; margin: 4px; border: 1px solid khaki\"> (Not done value set: <a href=\"http://cts.nlm.nih.gov/fhir/ValueSet/2.16.840.1.113762.1.4.1045.39\">http://cts.nlm.nih.gov/fhir/ValueSet/2.16.840.1.113762.1.4.1045.39</a>)</span></p><p><b>subject</b>: <a href=\"Patient-example.html\">Patient/example</a> &quot; CHALMERS&quot;</p><p><b>authoredOn</b>: 2015-03-25 07:32:52-0500</p><p><b>requester</b>: <a href=\"Practitioner-example.html\">Practitioner/example</a> &quot; CAREFUL&quot;</p><p><b>reasonCode</b>: Drug treatment not indicated (situation) <span style=\"background: LightGoldenRodYellow; margin: 4px; border: 1px solid khaki\"> (<a href=\"https://browser.ihtsdotools.org/\">SNOMED CT</a>#183966005)</span></p></div>"
      },
      "status": "completed",
      "intent": "order",
      "category": [ {
        "coding": [ {
          "system": "http://terminology.hl7.org/CodeSystem/medicationrequest-category",
          "code": "community"
        } ]
      } ],
      "doNotPerform": true,
      "medicationCodeableConcept": {
        "extension": [ {
          "url": "http://hl7.org/fhir/us/qicore/StructureDefinition/qicore-notDoneValueSet",
          "valueCanonical": "http://cts.nlm.nih.gov/fhir/ValueSet/2.16.840.1.113762.1.4.1045.39"
        } ],
        "text": "Not Done Value Set: Low Dose Unfractionated Heparin for VTE Prophylaxis"
      },
      "subject": {
        "reference": "Patient/example"
      },
      "authoredOn": "2015-03-25T19:32:52-05:00",
      "requester": {
        "reference": "Practitioner/example"
      },
      "reasonCode": [ {
        "coding": [ {
          "system": "http://snomed.info/sct",
          "code": "183966005",
          "display": "Drug treatment not indicated (situation)"
        } ]
      } ]
    },
    "request": {
      "method": "PUT",
      "url": "MedicationRequest/negation-example"
    }
  }, {
    "resource": {
      "resourceType": "MedicationRequest",
      "id": "self-tylenol",
      "text": {
        "status": "generated",
        "div": "<div xmlns=\"http://www.w3.org/1999/xhtml\"><p><b>Generated Narrative with Details</b></p><p><b>id</b>: self-tylenol</p><p><b>identifier</b>: 12345689 (OFFICIAL)</p><p><b>status</b>: active</p><p><b>intent</b>: order</p><p><b>reported</b>: true</p><p><b>medication</b>: Tylenol PM Pill <span style=\"background: LightGoldenRodYellow\">(Details : {RxNorm code '1187314' = 'Tylenol PM Pill', given as 'Tylenol PM Pill'})</span></p><p><b>subject</b>: <a href=\"Patient-example.html\">Amy V. Shaw. Generated Summary: id: example; Medical Record Number = 1032702 (USUAL); active; Amy V. Shaw ; ph: 555-555-5555(HOME), amy.shaw@example.com; gender: female; birthDate: 2007-02-20</a></p><p><b>encounter</b>: <a href=\"Encounter-example-1.html\">Office Visit. Generated Summary: id: example-1; status: finished; <span title=\"{http://terminology.hl7.org/CodeSystem/v3-ActCode AMB}\">ambulatory</span>; <span title=\"Codes: {http://www.ama-assn.org/go/cpt 99201}\">Office Visit</span>; period: 02/11/2015 9:00:14 AM --&gt; 02/11/2015 10:00:14 AM</a></p><p><b>authoredOn</b>: 24/06/2019 12:00:00 AM</p><p><b>requester</b>: <a href=\"Patient-example.html\">**self-prescribed**. Generated Summary: id: example; Medical Record Number = 1032702 (USUAL); active; Amy V. Shaw ; ph: 555-555-5555(HOME), amy.shaw@example.com; gender: female; birthDate: 2007-02-20</a></p><p><b>dosageInstruction</b>: </p></div>"
      },
      "identifier": [ {
        "use": "official",
        "system": "http://acme.org/prescriptions",
        "value": "12345689"
      } ],
      "status": "active",
      "intent": "order",
      "reportedBoolean": true,
      "medicationCodeableConcept": {
        "coding": [ {
          "system": "http://www.nlm.nih.gov/research/umls/rxnorm",
          "code": "1187314",
          "display": "Tylenol PM Pill"
        } ],
        "text": "Tylenol PM Pill"
      },
      "subject": {
        "reference": "Patient/example",
        "display": "Amy V. Shaw"
      },
      "encounter": {
        "reference": "Encounter/example-1",
        "display": "Office Visit"
      },
      "authoredOn": "2019-06-24",
      "requester": {
        "reference": "Patient/example",
        "display": "**self-prescribed**"
      },
      "dosageInstruction": [ {
        "text": "Takes 1-2 tablets once daily at bedtime as needed for restless legs"
      } ]
    },
    "request": {
      "method": "PUT",
      "url": "MedicationRequest/self-tylenol"
    }
  }, {
    "resource": {
      "resourceType": "MedicationRequest",
      "id": "uscore-mo1",
      "meta": {
        "profile": [ "http://hl7.org/fhir/us/core/StructureDefinition/us-core-medicationrequest" ]
      },
      "text": {
        "status": "generated",
        "div": "<div xmlns=\"http://www.w3.org/1999/xhtml\"><p><b>Generated Narrative with Details</b></p><p><b>id</b>: uscore-mo1</p><p><b>meta</b>: </p><p><b>status</b>: active</p><p><b>intent</b>: order</p><p><b>medication</b>: Nizatidine 15 MG/ML Oral Solution [Axid] <span style=\"background: LightGoldenRodYellow\">(Details : {RxNorm code '582620' = 'Nizatidine 15 MG/ML Oral Solution [Axid]', given as 'Nizatidine 15 MG/ML Oral Solution [Axid]'})</span></p><p><b>subject</b>: <a href=\"Patient-example.html\">Amy Shaw. Generated Summary: id: example; Medical Record Number = 1032702 (USUAL); active; Amy V. Shaw ; ph: 555-555-5555(HOME), amy.shaw@example.com; gender: female; birthDate: 2007-02-20</a></p><p><b>authoredOn</b>: 05/04/2008 12:00:00 AM</p><p><b>requester</b>: <a href=\"Practitioner-practitioner-1.html\">Ronald Bone, MD. Generated Summary: id: practitioner-1; 9941339108, 25456; Ronald Bone </a></p><p><b>dosageInstruction</b>: </p><h3>DispenseRequests</h3><table class=\"grid\"><tr><td>-</td><td><b>NumberOfRepeatsAllowed</b></td><td><b>Quantity</b></td><td><b>ExpectedSupplyDuration</b></td></tr><tr><td>*</td><td>1</td><td>480 mL<span style=\"background: LightGoldenRodYellow\"> (Details: UCUM code mL = 'mL')</span></td><td>30 days<span style=\"background: LightGoldenRodYellow\"> (Details: UCUM code d = 'd')</span></td></tr></table></div>"
      },
      "status": "active",
      "intent": "order",
      "medicationCodeableConcept": {
        "coding": [ {
          "system": "http://www.nlm.nih.gov/research/umls/rxnorm",
          "code": "582620",
          "display": "Nizatidine 15 MG/ML Oral Solution [Axid]"
        } ],
        "text": "Nizatidine 15 MG/ML Oral Solution [Axid]"
      },
      "subject": {
        "reference": "Patient/example",
        "display": "Amy Shaw"
      },
      "authoredOn": "2008-04-05",
      "requester": {
        "reference": "Practitioner/practitioner-1",
        "display": "Ronald Bone, MD"
      },
      "dosageInstruction": [ {
        "text": "10 mL bid",
        "timing": {
          "repeat": {
            "boundsPeriod": {
              "start": "2008-04-05"
            }
          }
        }
      } ],
      "dispenseRequest": {
        "numberOfRepeatsAllowed": 1,
        "quantity": {
          "value": 480,
          "unit": "mL",
          "system": "http://unitsofmeasure.org",
          "code": "mL"
        },
        "expectedSupplyDuration": {
          "value": 30,
          "unit": "days",
          "system": "http://unitsofmeasure.org",
          "code": "d"
        }
      }
    },
    "request": {
      "method": "PUT",
      "url": "MedicationRequest/uscore-mo1"
    }
  }, {
    "resource": {
      "resourceType": "MedicationRequest",
      "id": "uscore-mo2",
      "meta": {
        "profile": [ "http://hl7.org/fhir/us/core/StructureDefinition/us-core-medicationrequest" ]
      },
      "text": {
        "status": "generated",
        "div": "<div xmlns=\"http://www.w3.org/1999/xhtml\"><p><b>Generated Narrative with Details</b></p><p><b>id</b>: uscore-mo2</p><p><b>meta</b>: </p><p><b>contained</b>: </p><p><b>status</b>: active</p><p><b>intent</b>: order</p><p><b>medication</b>: Nizatidine 15 MG/ML Oral Solution [Axid]. Generated Summary: unknown resource contained</p><p><b>subject</b>: <a href=\"Patient-example.html\">Amy Shaw. Generated Summary: id: example; Medical Record Number = 1032702 (USUAL); active; Amy V. Shaw ; ph: 555-555-5555(HOME), amy.shaw@example.com; gender: female; birthDate: 2007-02-20</a></p><p><b>authoredOn</b>: 05/04/2008 12:00:00 AM</p><p><b>requester</b>: <a href=\"Practitioner-practitioner-1.html\">Ronald Bone, MD. Generated Summary: id: practitioner-1; 9941339108, 25456; Ronald Bone </a></p><p><b>dosageInstruction</b>: </p><h3>DispenseRequests</h3><table class=\"grid\"><tr><td>-</td><td><b>NumberOfRepeatsAllowed</b></td><td><b>Quantity</b></td><td><b>ExpectedSupplyDuration</b></td></tr><tr><td>*</td><td>1</td><td>480 mL<span style=\"background: LightGoldenRodYellow\"> (Details: UCUM code mL = 'mL')</span></td><td>30 days<span style=\"background: LightGoldenRodYellow\"> (Details: UCUM code d = 'd')</span></td></tr></table></div>"
      },
      "contained": [ {
        "resourceType": "Medication",
        "id": "med2",
        "code": {
          "coding": [ {
            "system": "http://www.nlm.nih.gov/research/umls/rxnorm",
            "code": "582620",
            "display": "Nizatidine 15 MG/ML Oral Solution [Axid]"
          } ],
          "text": "Nizatidine 15 MG/ML Oral Solution [Axid]"
        }
      } ],
      "status": "active",
      "intent": "order",
      "medicationReference": {
        "reference": "#med2",
        "display": "Nizatidine 15 MG/ML Oral Solution [Axid]"
      },
      "subject": {
        "reference": "Patient/example",
        "display": "Amy Shaw"
      },
      "authoredOn": "2008-04-05",
      "requester": {
        "reference": "Practitioner/practitioner-1",
        "display": "Ronald Bone, MD"
      },
      "dosageInstruction": [ {
        "text": "10 mL bid",
        "timing": {
          "repeat": {
            "boundsPeriod": {
              "start": "2008-04-05"
            }
          }
        }
      } ],
      "dispenseRequest": {
        "numberOfRepeatsAllowed": 1,
        "quantity": {
          "value": 480,
          "unit": "mL",
          "system": "http://unitsofmeasure.org",
          "code": "mL"
        },
        "expectedSupplyDuration": {
          "value": 30,
          "unit": "days",
          "system": "http://unitsofmeasure.org",
          "code": "d"
        }
      }
    },
    "request": {
      "method": "PUT",
      "url": "MedicationRequest/uscore-mo2"
    }
  } ]
}